File: data/raw/PDMS_properties/200823_PDMS_tensile_sample1_w6.57_t0.53_L22.74_27.2C_0.2mmps_1.csv
Labview measurement
Date(mm/dd/yy) 8/23/2020,4:01 PM
EDX-10A settings
Sampling frequency(Hz), 1000
Low pass filter  (0:2kHz/1:100Hz),1
VELMEX settings
Conversion(step/mm),200
Maximum displacement (mm),
-2.000000E+0
Speed (mm/sec),
0.2
Initialheight(mm),
12
Comments,

Time[s],CH1,CH2,CH3,CH4
0.000000000000000,0.0228744,-159.892,-159.847,0.000000000000000
0.015,0.0122448,-159.892,-159.847,0.000000000000000
0.03,0.0197168,-159.892,-159.847,0.000000000000000
0.045,0.0198419,-159.892,-159.847,0.000000000000000
0.06,0.025709,-159.892,-159.847,0.000000000000000
0.075,0.0187685,-159.892,-159.847,0.000000000000000
0.09,0.0282517,-159.892,-159.847,0.000000000000000
0.105,0.0280746,-159.892,-159.847,0.000000000000000
0.12,0.0327849,-159.892,-159.847,0.000000000000000
0.135,0.0190394,-159.892,-159.847,0.000000000000000
0.15,0.0336603,-159.892,-159.847,0.000000000000000
0.165,-0.0129743,-159.892,-159.847,0.000000000000000
0.18,0.224471,-159.892,-159.847,0.000000000000000
0.195,0.00543984,-159.892,-159.847,0.000000000000000
0.21,0.0353173,-159.892,-159.847,0.000000000000000
0.225,0.0700613,-159.892,-159.847,0.000000000000000
0.24,-0.00993135,-159.892,-159.847,0.000000000000000
0.255,0.239353,-159.892,-159.847,0.000000000000000
0.27,0.0564617,-159.892,-159.847,0.000000000000000
0.285,0.0924876,-159.892,-159.847,0.000000000000000
0.3,0.0611721,-159.892,-159.847,0.000000000000000
0.315,-0.00691964,-159.892,-159.847,0.000000000000000
0.33,0.223846,-159.892,-159.847,0.000000000000000
0.345,0.0131619,-159.892,-159.847,0.000000000000000
0.36,0.032118,-159.892,-159.847,0.000000000000000
0.375,0.0858806,-159.892,-159.847,0.000000000000000
0.39,0.00324098,-159.892,-159.847,0.000000000000000
0.405,0.241156,-159.892,-159.847,0.000000000000000
0.42,0.0642359,-159.892,-159.847,0.000000000000000
0.435,0.0978024,-159.892,-159.847,0.000000000000000
0.45,0.0985215,-159.892,-159.847,0.000000000000000
0.465,0.0108484,-159.892,-159.847,0.000000000000000
0.48,0.242594,-159.892,-159.847,0.000000000000000
0.495,0.0504383,-159.892,-159.847,0.000000000000000
0.51,0.0426642,-159.892,-159.847,0.000000000000000
0.525,0.107619,-159.892,-159.847,0.000000000000000
0.54,0.00945198,-159.892,-159.847,0.000000000000000
0.555,0.276421,-159.892,-159.847,0.000000000000000
0.57,0.0721456,-159.892,-159.847,0.000000000000000
0.585,0.109255,-159.892,-159.847,0.000000000000000
0.6,0.0951554,-159.892,-159.847,0.000000000000000
0.615,0.0247294,-159.892,-159.847,0.000000000000000
0.63,0.250983,-159.892,-159.847,0.000000000000000
0.645,0.0328266,-159.892,-159.847,0.000000000000000
0.66,0.0334519,-159.892,-159.847,0.000000000000000
0.675,0.123209,-159.892,-159.847,0.000000000000000
0.69,0.0343481,-159.892,-159.847,0.000000000000000
0.705,0.29224,-159.892,-159.847,0.000000000000000
0.72,0.0911642,-159.892,-159.847,0.000000000000000
0.735,0.111808,-159.892,-159.847,0.000000000000000
0.75,0.107098,-159.892,-159.847,0.000000000000000
0.765,0.0257298,-159.892,-159.847,0.000000000000000
0.78,0.282184,-159.892,-159.847,0.000000000000000
0.795,0.051939,-159.892,-159.847,0.000000000000000
0.81,0.0760848,-159.892,-159.847,0.000000000000000
0.825,0.120771,-159.892,-159.847,0.000000000000000
0.84,0.0296586,-159.892,-159.847,0.000000000000000
0.855,0.31452,-159.892,-159.847,0.000000000000000
0.87,0.116508,-159.892,-159.847,0.000000000000000
0.885,0.139841,-159.892,-159.847,0.000000000000000
0.9,0.105722,-159.892,-159.847,0.000000000000000
0.915,0.0448839,-159.892,-159.847,0.000000000000000
0.93,0.297638,-159.892,-159.847,0.000000000000000
0.945,0.0655386,-159.892,-159.847,0.000000000000000
0.96,0.0798989,-159.892,-159.847,0.000000000000000
0.975,0.122876,-159.892,-159.847,0.000000000000000
0.99,0.044342,-159.892,-159.847,0.000000000000000
1.005,0.312874,-159.892,-159.847,0.000000000000000
1.02,0.109589,-159.892,-159.847,0.000000000000000
1.035,0.154504,-159.892,-159.847,0.000000000000000
1.05,0.13584,-159.892,-159.847,0.000000000000000
1.065,0.0514804,-159.892,-159.847,0.000000000000000
1.08,0.31005,-159.892,-159.847,0.000000000000000
1.095,0.0719892,-159.892,-159.847,0.000000000000000
1.11,0.104097,-159.892,-159.847,0.000000000000000
1.125,0.148074,-159.892,-159.847,0.000000000000000
1.14,0.0611408,-159.892,-159.847,0.000000000000000
1.155,0.317053,-159.892,-159.847,0.000000000000000
1.17,0.133422,-159.892,-159.847,0.000000000000000
1.185,0.17792,-159.892,-159.847,0.000000000000000
1.2,0.126752,-159.892,-159.847,0.000000000000000
1.215,0.0560136,-159.892,-159.847,0.000000000000000
1.23,0.30783,-159.892,-159.847,0.000000000000000
1.245,0.094353,-159.892,-159.847,0.000000000000000
1.26,0.0972397,-159.892,-159.847,0.000000000000000
1.275,0.163122,-159.892,-159.847,0.000000000000000
1.29,0.0696758,-159.892,-159.847,0.000000000000000
1.305,0.336665,-159.892,-159.847,0.000000000000000
1.32,0.136006,-159.892,-159.847,0.000000000000000
1.335,0.190207,-159.892,-159.847,0.000000000000000
1.35,0.157005,-159.892,-159.847,0.000000000000000
1.365,0.09032,-159.892,-159.847,0.000000000000000
1.38,0.320252,-159.892,-159.847,0.000000000000000
1.395,0.104451,-159.892,-159.847,0.000000000000000
1.41,0.122824,-159.892,-159.847,0.000000000000000
1.425,0.171105,-159.892,-159.847,0.000000000000000
1.44,0.083984,-159.892,-159.847,0.000000000000000
1.455,0.34742,-159.892,-159.847,0.000000000000000
1.47,0.155129,-159.892,-159.847,0.000000000000000
1.485,0.20193,-159.892,-159.847,0.000000000000000
1.5,0.142488,-159.892,-159.847,0.000000000000000
1.515,0.106848,-159.892,-159.847,0.000000000000000
1.53,0.334738,-159.892,-159.847,0.000000000000000
1.545,0.112892,-159.892,-159.847,0.000000000000000
1.56,0.112538,-159.892,-159.847,0.000000000000000
1.575,0.186882,-159.892,-159.847,0.000000000000000
1.59,0.095937,-159.892,-159.847,0.000000000000000
1.605,0.364281,-159.892,-159.847,0.000000000000000
1.62,0.166176,-159.892,-159.847,0.000000000000000
1.635,0.193218,-159.892,-159.847,0.000000000000000
1.65,0.173773,-159.892,-159.847,0.000000000000000
1.665,0.0909453,-159.892,-159.847,0.000000000000000
1.68,0.356236,-159.892,-159.847,0.000000000000000
1.695,0.126606,-159.892,-159.847,0.000000000000000
1.71,0.161892,-159.892,-159.847,0.000000000000000
1.725,0.183464,-159.892,-159.847,0.000000000000000
1.74,0.102002,-159.892,-159.847,0.000000000000000
1.755,0.375672,-159.892,-159.847,0.000000000000000
1.77,0.183277,-159.892,-159.847,0.000000000000000
1.785,0.213675,-159.892,-159.847,0.000000000000000
1.8,0.168677,-159.892,-159.847,0.000000000000000
1.815,0.0975836,-159.892,-159.847,0.000000000000000
1.83,0.363344,-159.892,-159.847,0.000000000000000
1.845,0.140456,-159.892,-159.847,0.000000000000000
1.86,0.127326,-159.892,-159.847,0.000000000000000
1.875,0.191468,-159.892,-159.847,0.000000000000000
1.89,0.103284,-159.892,-159.847,0.000000000000000
1.905,0.373244,-159.892,-159.847,0.000000000000000
1.92,0.184235,-159.892,-159.847,0.000000000000000
1.935,0.205453,-159.892,-159.847,0.000000000000000
1.95,0.204088,-159.892,-159.847,0.000000000000000
1.965,0.11161,-159.892,-159.847,0.000000000000000
1.98,0.381299,-159.892,-159.847,0.000000000000000
1.995,0.142478,-159.892,-159.847,0.000000000000000
2.01,0.174085,-159.892,-159.847,0.000000000000000
2.025,0.205901,-159.892,-159.847,0.000000000000000
2.04,0.118895,-159.892,-159.847,0.000000000000000
2.055,0.398338,-159.892,-159.847,0.000000000000000
2.07,0.197303,-159.892,-159.847,0.000000000000000
2.085,0.246147,-159.892,-159.847,0.000000000000000
2.1,0.201451,-159.892,-159.847,0.000000000000000
2.115,0.111663,-159.892,-159.847,0.000000000000000
2.13,0.396775,-159.892,-159.847,0.000000000000000
2.145,0.155744,-159.892,-159.847,0.000000000000000
2.16,0.157797,-159.892,-159.847,0.000000000000000
2.175,0.223752,-159.892,-159.847,0.000000000000000
2.19,0.141269,-159.892,-159.847,0.000000000000000
2.205,0.41077,-159.892,-159.847,0.000000000000000
2.22,0.201618,-159.892,-159.847,0.000000000000000
2.235,0.24275,-159.892,-159.847,0.000000000000000
2.25,0.210121,-159.892,-159.847,0.000000000000000
2.265,0.126002,-159.892,-159.847,0.000000000000000
2.28,0.413188,-159.892,-159.847,0.000000000000000
2.295,0.17619,-159.892,-159.847,0.000000000000000
2.31,0.181182,-159.892,-159.847,0.000000000000000
2.325,0.220063,-159.892,-159.847,0.000000000000000
2.34,0.143916,-159.892,-159.847,0.000000000000000
2.355,0.434322,-159.892,-159.847,0.000000000000000
2.37,0.221616,-159.892,-159.847,0.000000000000000
2.385,0.261706,-159.892,-159.847,0.000000000000000
2.4,0.213592,-159.892,-159.847,0.000000000000000
2.415,0.138278,-159.892,-159.847,0.000000000000000
2.43,0.39964,-159.892,-159.847,0.000000000000000
2.445,0.181307,-159.892,-159.847,0.000000000000000
2.46,0.178441,-159.892,-159.847,0.000000000000000
2.475,0.235372,-159.892,-159.847,0.000000000000000
2.49,0.166311,-159.892,-159.847,0.000000000000000
2.505,0.433822,-159.892,-159.847,0.000000000000000
2.52,0.228682,-159.892,-159.847,0.000000000000000
2.535,0.263582,-159.892,-159.847,0.000000000000000
2.55,0.242698,-159.892,-159.847,0.000000000000000
2.565,0.159131,-159.892,-159.847,0.000000000000000
2.58,0.432832,-159.892,-159.847,0.000000000000000
2.595,0.178379,-159.892,-159.847,0.000000000000000
2.61,0.216551,-159.892,-159.847,0.000000000000000
2.625,0.235955,-159.892,-159.847,0.000000000000000
2.64,0.17817,-159.892,-159.847,0.000000000000000
2.655,0.437969,-159.892,-159.847,0.000000000000000
2.67,0.253077,-159.892,-159.847,0.000000000000000
2.685,0.287999,-159.892,-159.847,0.000000000000000
2.7,0.236654,-159.892,-159.847,0.000000000000000
2.715,0.157891,-159.892,-159.847,0.000000000000000
2.73,0.432665,-159.892,-159.847,0.000000000000000
2.745,0.196762,-159.892,-159.847,0.000000000000000
2.76,0.210267,-159.892,-159.847,0.000000000000000
2.775,0.261466,-159.892,-159.847,0.000000000000000
2.79,0.182287,-159.892,-159.847,0.000000000000000
2.805,0.450902,-159.892,-159.847,0.000000000000000
2.82,0.241437,-159.892,-159.847,0.000000000000000
2.835,0.296596,-159.892,-159.847,0.000000000000000
2.85,0.257486,-159.892,-159.847,0.000000000000000
2.865,0.168718,-159.892,-159.847,0.000000000000000
2.88,0.440971,-159.892,-159.847,0.000000000000000
2.895,0.219177,-159.892,-159.847,0.000000000000000
2.91,0.245199,-159.892,-159.847,0.000000000000000
2.925,0.262488,-159.892,-159.847,0.000000000000000
2.94,0.188602,-159.892,-159.847,0.000000000000000
2.955,0.468712,-159.892,-159.847,0.000000000000000
2.97,0.27838,-159.892,-159.847,0.000000000000000
2.985,0.313166,-159.892,-159.847,0.000000000000000
3,0.257142,-159.892,-159.847,0.000000000000000
3.015,0.185382,-159.892,-159.847,0.000000000000000
3.03,0.448318,-159.892,-159.847,0.000000000000000
3.045,0.232089,-159.892,-159.847,0.000000000000000
3.06,0.232058,-159.892,-159.847,0.000000000000000
3.075,0.280579,-159.892,-159.847,0.000000000000000
3.09,0.203181,-159.892,-159.847,0.000000000000000
3.105,0.47437,-159.892,-159.847,0.000000000000000
3.12,0.252806,-159.892,-159.847,0.000000000000000
3.135,0.304912,-159.892,-159.847,0.000000000000000
3.15,0.284185,-159.892,-159.847,0.000000000000000
3.165,0.196855,-159.892,-159.847,0.000000000000000
3.18,0.477247,-159.892,-159.847,0.000000000000000
3.195,0.244053,-159.892,-159.847,0.000000000000000
3.21,0.2435,-159.892,-159.847,0.000000000000000
3.225,0.293845,-159.892,-159.847,0.000000000000000
3.24,0.219188,-159.892,-159.847,0.000000000000000
3.255,0.493097,-159.892,-159.847,0.000000000000000
3.27,0.290698,-159.892,-159.847,0.000000000000000
3.285,0.313906,-159.892,-159.847,0.000000000000000
3.3,0.279349,-159.892,-159.847,0.000000000000000
3.315,0.193375,-159.892,-159.847,0.000000000000000
3.33,0.491065,-159.892,-159.847,0.000000000000000
3.345,0.250556,-159.892,-159.847,0.000000000000000
3.36,0.234945,-159.892,-159.847,0.000000000000000
3.375,0.280193,-159.892,-159.847,0.000000000000000
3.39,0.221731,-159.892,-159.847,0.000000000000000
3.405,0.50257,-159.892,-159.847,0.000000000000000
3.42,0.28853,-159.892,-159.847,0.000000000000000
3.435,0.325077,-159.892,-159.847,0.000000000000000
3.45,0.289739,-159.892,-159.847,0.000000000000000
3.465,0.229484,-159.892,-159.847,0.000000000000000
3.48,0.484427,-159.892,-159.847,0.000000000000000
3.495,0.258955,-159.892,-159.847,0.000000000000000
3.51,0.278922,-159.892,-159.847,0.000000000000000
3.525,0.30807,-159.892,-159.847,0.000000000000000
3.54,0.230286,-159.892,-159.847,0.000000000000000
3.555,0.502049,-159.892,-159.847,0.000000000000000
3.57,0.31649,-159.892,-159.847,0.000000000000000
3.585,0.344596,-159.892,-159.847,0.000000000000000
3.6,0.312176,-159.892,-159.847,0.000000000000000
3.615,0.218823,-159.892,-159.847,0.000000000000000
3.63,0.499756,-159.892,-159.847,0.000000000000000
3.645,0.27046,-159.892,-159.847,0.000000000000000
3.66,0.249065,-159.892,-159.847,0.000000000000000
3.675,0.312395,-159.892,-159.847,0.000000000000000
3.69,0.235038,-159.892,-159.847,0.000000000000000
3.705,0.52955,-159.892,-159.847,0.000000000000000
3.72,0.299326,-159.892,-159.847,0.000000000000000
3.735,0.341501,-159.892,-159.847,0.000000000000000
3.75,0.324441,-159.892,-159.847,0.000000000000000
3.765,0.245157,-159.892,-159.847,0.000000000000000
3.78,0.508083,-159.892,-159.847,0.000000000000000
3.795,0.278724,-159.892,-159.847,0.000000000000000
3.81,0.276744,-159.892,-159.847,0.000000000000000
3.825,0.32217,-159.892,-159.847,0.000000000000000
3.84,0.239353,-159.892,-159.847,0.000000000000000
3.855,0.540732,-159.892,-159.847,0.000000000000000
3.87,0.335696,-159.892,-159.847,0.000000000000000
3.885,0.359248,-159.892,-159.847,0.000000000000000
3.9,0.329006,-159.892,-159.847,0.000000000000000
3.915,0.234611,-159.892,-159.847,0.000000000000000
3.93,0.51421,-159.892,-159.847,0.000000000000000
3.945,0.285571,-159.892,-159.847,0.000000000000000
3.96,0.283424,-159.892,-159.847,0.000000000000000
3.975,0.326557,-159.892,-159.847,0.000000000000000
3.99,0.255224,-159.892,-159.847,0.000000000000000
4.005,0.535626,-159.892,-159.847,0.000000000000000
4.02,0.318272,-159.892,-159.847,0.000000000000000
4.035,0.386781,-159.892,-159.847,0.000000000000000
4.05,0.326088,-159.892,-159.847,0.000000000000000
4.065,0.256433,-159.892,-159.847,0.000000000000000
4.08,0.539284,-159.892,-159.847,0.000000000000000
4.095,0.301463,-159.892,-159.847,0.000000000000000
4.11,0.310435,-159.892,-159.847,0.000000000000000
4.125,0.336968,-159.892,-159.847,0.000000000000000
4.14,0.245658,-159.892,-159.847,0.000000000000000
4.155,0.549903,-159.892,-159.847,0.000000000000000
4.17,0.339646,-159.892,-159.847,0.000000000000000
4.185,0.394774,-159.892,-159.847,0.000000000000000
4.2,0.332414,-159.892,-159.847,0.000000000000000
4.215,0.25439,-159.892,-159.847,0.000000000000000
4.23,0.536845,-159.892,-159.847,0.000000000000000
4.245,0.299545,-159.892,-159.847,0.000000000000000
4.26,0.282871,-159.892,-159.847,0.000000000000000
4.275,0.346972,-159.892,-159.847,0.000000000000000
4.29,0.269637,-159.892,-159.847,0.000000000000000
4.305,0.572913,-159.892,-159.847,0.000000000000000
4.32,0.332038,-159.892,-159.847,0.000000000000000
4.335,0.375901,-159.892,-159.847,0.000000000000000
4.35,0.352985,-159.892,-159.847,0.000000000000000
4.365,0.27765,-159.892,-159.847,0.000000000000000
4.38,0.550632,-159.892,-159.847,0.000000000000000
4.395,0.330194,-159.892,-159.847,0.000000000000000
4.41,0.314802,-159.892,-159.847,0.000000000000000
4.425,0.359561,-159.892,-159.847,0.000000000000000
4.44,0.27541,-159.892,-159.847,0.000000000000000
4.455,0.561533,-159.892,-159.847,0.000000000000000
4.47,0.346253,-159.892,-159.847,0.000000000000000
4.485,0.41497,-159.892,-159.847,0.000000000000000
4.5,0.340907,-159.892,-159.847,0.000000000000000
4.515,0.273565,-159.892,-159.847,0.000000000000000
4.53,0.54438,-159.892,-159.847,0.000000000000000
4.545,0.329652,-159.892,-159.847,0.000000000000000
4.56,0.326744,-159.892,-159.847,0.000000000000000
4.575,0.36375,-159.892,-159.847,0.000000000000000
4.59,0.289979,-159.892,-159.847,0.000000000000000
4.605,0.591817,-159.892,-159.847,0.000000000000000
4.62,0.351818,-159.892,-159.847,0.000000000000000
4.635,0.40954,-159.892,-159.847,0.000000000000000
4.65,0.356445,-159.892,-159.847,0.000000000000000
4.665,0.305923,-159.892,-159.847,0.000000000000000
4.68,0.566806,-159.892,-159.847,0.000000000000000
4.695,0.327787,-159.892,-159.847,0.000000000000000
4.71,0.336269,-159.892,-159.847,0.000000000000000
4.725,0.373942,-159.892,-159.847,0.000000000000000
4.74,0.302161,-159.892,-159.847,0.000000000000000
4.755,0.588451,-159.892,-159.847,0.000000000000000
4.77,0.37564,-159.892,-159.847,0.000000000000000
4.785,0.428392,-159.892,-159.847,0.000000000000000
4.8,0.369367,-159.892,-159.847,0.000000000000000
4.815,0.300983,-159.892,-159.847,0.000000000000000
4.83,0.55675,-159.892,-159.847,0.000000000000000
4.845,0.354704,-159.892,-159.847,0.000000000000000
4.86,0.335853,-159.892,-159.847,0.000000000000000
4.875,0.378162,-159.892,-159.847,0.000000000000000
4.89,0.315312,-159.892,-159.847,0.000000000000000
4.905,0.60848,-159.892,-159.847,0.000000000000000
4.92,0.362937,-159.892,-159.847,0.000000000000000
4.935,0.417492,-159.892,-159.847,0.000000000000000
4.95,0.397098,-159.892,-159.847,0.000000000000000
4.965,0.311321,-159.892,-159.847,0.000000000000000
4.98,0.574434,-159.892,-159.847,0.000000000000000
4.995,0.354694,-159.892,-159.847,0.000000000000000
5.01,0.360613,-159.892,-159.847,0.000000000000000
5.025,0.386301,-159.892,-159.847,0.000000000000000
5.04,0.310946,-159.892,-159.847,0.000000000000000
5.055,0.621381,-159.892,-159.847,0.000000000000000
5.07,0.378892,-159.892,-159.847,0.000000000000000
5.085,0.449776,-159.892,-159.847,0.000000000000000
5.1,0.384144,-159.892,-159.847,0.000000000000000
5.115,0.312645,-159.892,-159.847,0.000000000000000
5.13,0.584605,-159.892,-159.847,0.000000000000000
5.145,0.345742,-159.892,-159.847,0.000000000000000
5.16,0.356622,-159.892,-159.847,0.000000000000000
5.175,0.402933,-159.892,-159.847,0.000000000000000
5.19,0.332018,-159.892,-159.847,0.000000000000000
5.205,0.624289,-159.892,-159.847,0.000000000000000
5.22,0.397921,-159.892,-159.847,0.000000000000000
5.235,0.435364,-159.892,-159.847,0.000000000000000
5.25,0.394638,-159.892,-159.847,0.000000000000000
5.265,0.328474,-159.892,-159.847,0.000000000000000
5.28,0.614514,-159.892,-159.847,0.000000000000000
5.295,0.36375,-159.892,-159.847,0.000000000000000
5.31,0.395274,-159.892,-159.847,0.000000000000000
5.325,0.392314,-159.892,-159.847,0.000000000000000
5.34,0.335894,-159.892,-159.847,0.000000000000000
5.355,0.629718,-159.892,-159.847,0.000000000000000
5.37,0.407915,-159.892,-159.847,0.000000000000000
5.385,0.472922,-159.892,-159.847,0.000000000000000
5.4,0.393534,-159.892,-159.847,0.000000000000000
5.415,0.342001,-159.892,-159.847,0.000000000000000
5.43,0.605187,-159.892,-159.847,0.000000000000000
5.445,0.358102,-159.892,-159.847,0.000000000000000
5.46,0.365793,-159.892,-159.847,0.000000000000000
5.475,0.40408,-159.892,-159.847,0.000000000000000
5.49,0.357497,-159.892,-159.847,0.000000000000000
5.505,0.645517,-159.892,-159.847,0.000000000000000
5.52,0.415105,-159.892,-159.847,0.000000000000000
5.535,0.463043,-159.892,-159.847,0.000000000000000
5.55,0.422609,-159.892,-159.847,0.000000000000000
5.565,0.350619,-159.892,-159.847,0.000000000000000
5.58,0.611929,-159.892,-159.847,0.000000000000000
5.595,0.392554,-159.892,-159.847,0.000000000000000
5.61,0.379038,-159.892,-159.847,0.000000000000000
5.625,0.402735,-159.892,-159.847,0.000000000000000
5.64,0.365188,-159.892,-159.847,0.000000000000000
5.655,0.643818,-159.892,-159.847,0.000000000000000
5.67,0.441387,-159.892,-159.847,0.000000000000000
5.685,0.477174,-159.892,-159.847,0.000000000000000
5.7,0.424807,-159.892,-159.847,0.000000000000000
5.715,0.371983,-159.892,-159.847,0.000000000000000
5.73,0.620704,-159.892,-159.847,0.000000000000000
5.745,0.395451,-159.892,-159.847,0.000000000000000
5.76,0.372889,-159.892,-159.847,0.000000000000000
5.775,0.431758,-159.892,-159.847,0.000000000000000
5.79,0.37562,-159.892,-159.847,0.000000000000000
5.805,0.666943,-159.892,-159.847,0.000000000000000
5.82,0.423276,-159.892,-159.847,0.000000000000000
5.835,0.476246,-159.892,-159.847,0.000000000000000
5.85,0.419972,-159.892,-159.847,0.000000000000000
5.865,0.365417,-159.892,-159.847,0.000000000000000
5.88,0.639994,-159.892,-159.847,0.000000000000000
5.895,0.407925,-159.892,-159.847,0.000000000000000
5.91,0.408988,-159.892,-159.847,0.000000000000000
5.925,0.430351,-159.892,-159.847,0.000000000000000
5.94,0.381831,-159.892,-159.847,0.000000000000000
5.955,0.671153,-159.892,-159.847,0.000000000000000
5.97,0.438053,-159.892,-159.847,0.000000000000000
5.985,0.494442,-159.892,-159.847,0.000000000000000
6,0.419097,-159.892,-159.847,0.000000000000000
6.015,0.383727,-159.892,-159.847,0.000000000000000
6.03,0.629187,-159.892,-159.847,0.000000000000000
6.045,0.421744,-159.892,-159.847,0.000000000000000
6.06,0.4167,-159.892,-159.847,0.000000000000000
6.075,0.427673,-159.892,-159.847,0.000000000000000
6.09,0.39494,-159.892,-159.847,0.000000000000000
6.105,0.681845,-159.892,-159.847,0.000000000000000
6.12,0.429476,-159.892,-159.847,0.000000000000000
6.135,0.488991,-159.892,-159.847,0.000000000000000
6.15,0.438751,-159.892,-159.847,0.000000000000000
6.165,0.38354,-159.892,-159.847,0.000000000000000
6.18,0.656699,-159.892,-159.847,0.000000000000000
6.195,0.427194,-159.892,-159.847,0.000000000000000
6.21,0.433238,-159.892,-159.847,0.000000000000000
6.225,0.435645,-159.892,-159.847,0.000000000000000
6.24,0.400547,-159.892,-159.847,0.000000000000000
6.255,0.679896,-159.892,-159.847,0.000000000000000
6.27,0.464793,-159.892,-159.847,0.000000000000000
6.285,0.498547,-159.892,-159.847,0.000000000000000
6.3,0.455935,-159.892,-159.847,0.000000000000000
6.315,0.403653,-159.892,-159.847,0.000000000000000
6.33,0.646027,-159.892,-159.847,0.000000000000000
6.345,0.43377,-159.892,-159.847,0.000000000000000
6.36,0.412646,-159.892,-159.847,0.000000000000000
6.375,0.438126,-159.892,-159.847,0.000000000000000
6.39,0.422098,-159.892,-159.847,0.000000000000000
6.405,0.688254,-159.892,-159.847,0.000000000000000
6.42,0.460344,-159.892,-159.847,0.000000000000000
6.435,0.484698,-159.892,-159.847,0.000000000000000
6.45,0.457488,-159.892,-159.847,0.000000000000000
6.465,0.418628,-159.892,-159.847,0.000000000000000
6.48,0.653156,-159.892,-159.847,0.000000000000000
6.495,0.450548,-159.892,-159.847,0.000000000000000
6.51,0.448828,-159.892,-159.847,0.000000000000000
6.525,0.46496,-159.892,-159.847,0.000000000000000
6.54,0.424568,-159.892,-159.847,0.000000000000000
6.555,0.71142,-159.892,-159.847,0.000000000000000
6.57,0.501695,-159.892,-159.847,0.000000000000000
6.585,0.512616,-159.892,-159.847,0.000000000000000
6.6,0.474985,-159.892,-159.847,0.000000000000000
6.615,0.420253,-159.892,-159.847,0.000000000000000
6.63,0.671903,-159.892,-159.847,0.000000000000000
6.645,0.445087,-159.892,-159.847,0.000000000000000
6.66,0.430956,-159.892,-159.847,0.000000000000000
6.675,0.473599,-159.892,-159.847,0.000000000000000
6.69,0.413428,-159.892,-159.847,0.000000000000000
6.705,0.712733,-159.892,-159.847,0.000000000000000
6.72,0.480654,-159.892,-159.847,0.000000000000000
6.735,0.523694,-159.892,-159.847,0.000000000000000
6.75,0.467169,-159.892,-159.847,0.000000000000000
6.765,0.428465,-159.892,-159.847,0.000000000000000
6.78,0.686847,-159.892,-159.847,0.000000000000000
6.795,0.462313,-159.892,-159.847,0.000000000000000
6.81,0.435572,-159.892,-159.847,0.000000000000000
6.825,0.476528,-159.892,-159.847,0.000000000000000
6.84,0.433665,-159.892,-159.847,0.000000000000000
6.855,0.721039,-159.892,-159.847,0.000000000000000
6.87,0.486626,-159.892,-159.847,0.000000000000000
6.885,0.526216,-159.892,-159.847,0.000000000000000
6.9,0.485302,-159.892,-159.847,0.000000000000000
6.915,0.429726,-159.892,-159.847,0.000000000000000
6.93,0.680355,-159.892,-159.847,0.000000000000000
6.945,0.474652,-159.892,-159.847,0.000000000000000
6.96,0.446233,-159.892,-159.847,0.000000000000000
6.975,0.487376,-159.892,-159.847,0.000000000000000
6.99,0.444608,-159.892,-159.847,0.000000000000000
7.005,0.729678,-159.892,-159.847,0.000000000000000
7.02,0.503633,-159.892,-159.847,0.000000000000000
7.035,0.530759,-159.892,-159.847,0.000000000000000
7.05,0.494671,-159.892,-159.847,0.000000000000000
7.065,0.451673,-159.892,-159.847,0.000000000000000
7.08,0.70449,-159.892,-159.847,0.000000000000000
7.095,0.483708,-159.892,-159.847,0.000000000000000
7.11,0.46472,-159.892,-159.847,0.000000000000000
7.125,0.503352,-159.892,-159.847,0.000000000000000
7.14,0.45111,-159.892,-159.847,0.000000000000000
7.155,0.737087,-159.892,-159.847,0.000000000000000
7.17,0.525945,-159.892,-159.847,0.000000000000000
7.185,0.546954,-159.892,-159.847,0.000000000000000
7.2,0.50554,-159.892,-159.847,0.000000000000000
7.215,0.457624,-159.892,-159.847,0.000000000000000
7.23,0.689619,-159.892,-159.847,0.000000000000000
7.245,0.482165,-159.892,-159.847,0.000000000000000
7.26,0.457071,-159.892,-159.847,0.000000000000000
7.275,0.506061,-159.892,-159.847,0.000000000000000
7.29,0.452653,-159.892,-159.847,0.000000000000000
7.305,0.747738,-159.892,-159.847,0.000000000000000
7.32,0.528029,-159.892,-159.847,0.000000000000000
7.335,0.547725,-159.892,-159.847,0.000000000000000
7.35,0.521609,-159.892,-159.847,0.000000000000000
7.365,0.458322,-159.892,-159.847,0.000000000000000
7.38,0.716943,-159.892,-159.847,0.000000000000000
7.395,0.508916,-159.892,-159.847,0.000000000000000
7.41,0.488449,-159.892,-159.847,0.000000000000000
7.425,0.512418,-159.892,-159.847,0.000000000000000
7.44,0.466284,-159.892,-159.847,0.000000000000000
7.455,0.754355,-159.892,-159.847,0.000000000000000
7.47,0.521099,-159.892,-159.847,0.000000000000000
7.485,0.564461,-159.892,-159.847,0.000000000000000
7.5,0.520265,-159.892,-159.847,0.000000000000000
7.515,0.452465,-159.892,-159.847,0.000000000000000
7.53,0.71414,-159.892,-159.847,0.000000000000000
7.545,0.493076,-159.892,-159.847,0.000000000000000
7.56,0.474766,-159.892,-159.847,0.000000000000000
7.575,0.514471,-159.892,-159.847,0.000000000000000
7.59,0.480217,-159.892,-159.847,0.000000000000000
7.605,0.769872,-159.892,-159.847,0.000000000000000
7.62,0.515669,-159.892,-159.847,0.000000000000000
7.635,0.553779,-159.892,-159.847,0.000000000000000
7.65,0.533333,-159.892,-159.847,0.000000000000000
7.665,0.471171,-159.892,-159.847,0.000000000000000
7.68,0.738598,-159.892,-159.847,0.000000000000000
7.695,0.509365,-159.892,-159.847,0.000000000000000
7.71,0.497307,-159.892,-159.847,0.000000000000000
7.725,0.527008,-159.892,-159.847,0.000000000000000
7.74,0.48499,-159.892,-159.847,0.000000000000000
7.755,0.774562,-159.892,-159.847,0.000000000000000
7.77,0.553769,-159.892,-159.847,0.000000000000000
7.785,0.561043,-159.892,-159.847,0.000000000000000
7.8,0.527445,-159.892,-159.847,0.000000000000000
7.815,0.466263,-159.892,-159.847,0.000000000000000
7.83,0.743423,-159.892,-159.847,0.000000000000000
7.845,0.510073,-159.892,-159.847,0.000000000000000
7.86,0.490711,-159.892,-159.847,0.000000000000000
7.875,0.526299,-159.892,-159.847,0.000000000000000
7.89,0.484864,-159.892,-159.847,0.000000000000000
7.905,0.780742,-159.892,-159.847,0.000000000000000
7.92,0.54908,-159.892,-159.847,0.000000000000000
7.935,0.569265,-159.892,-159.847,0.000000000000000
7.95,0.536387,-159.892,-159.847,0.000000000000000
7.965,0.471901,-159.892,-159.847,0.000000000000000
7.98,0.744372,-159.892,-159.847,0.000000000000000
7.995,0.528435,-159.892,-159.847,0.000000000000000
8.01,0.517858,-159.892,-159.847,0.000000000000000
8.025,0.550445,-159.892,-159.847,0.000000000000000
8.04,0.487907,-159.892,-159.847,0.000000000000000
8.055,0.788714,-159.892,-159.847,0.000000000000000
8.07,0.55107,-159.892,-159.847,0.000000000000000
8.085,0.592286,-159.892,-159.847,0.000000000000000
8.1,0.550955,-159.892,-159.847,0.000000000000000
8.115,0.476767,-159.892,-159.847,0.000000000000000
8.13,0.763828,-159.892,-159.847,0.000000000000000
8.145,0.539961,-159.892,-159.847,0.000000000000000
8.16,0.514857,-159.892,-159.847,0.000000000000000
8.175,0.530394,-159.892,-159.847,0.000000000000000
8.19,0.494473,-159.892,-159.847,0.000000000000000
8.205,0.803866,-159.892,-159.847,0.000000000000000
8.22,0.575112,-159.892,-159.847,0.000000000000000
8.235,0.586898,-159.892,-159.847,0.000000000000000
8.25,0.558167,-159.892,-159.847,0.000000000000000
8.265,0.499621,-159.892,-159.847,0.000000000000000
8.28,0.772926,-159.892,-159.847,0.000000000000000
8.295,0.528696,-159.892,-159.847,0.000000000000000
8.31,0.533792,-159.892,-159.847,0.000000000000000
8.325,0.561554,-159.892,-159.847,0.000000000000000
8.34,0.506676,-159.892,-159.847,0.000000000000000
8.355,0.799593,-159.892,-159.847,0.000000000000000
8.37,0.552487,-159.892,-159.847,0.000000000000000
8.385,0.611898,-159.892,-159.847,0.000000000000000
8.4,0.564294,-159.892,-159.847,0.000000000000000
8.415,0.490263,-159.892,-159.847,0.000000000000000
8.43,0.774624,-159.892,-159.847,0.000000000000000
8.445,0.534407,-159.892,-159.847,0.000000000000000
8.46,0.512751,-159.892,-159.847,0.000000000000000
8.475,0.565993,-159.892,-159.847,0.000000000000000
8.49,0.525757,-159.892,-159.847,0.000000000000000
8.505,0.805533,-159.892,-159.847,0.000000000000000
8.52,0.581218,-159.892,-159.847,0.000000000000000
8.535,0.615556,-159.892,-159.847,0.000000000000000
8.55,0.560939,-159.892,-159.847,0.000000000000000
8.565,0.494567,-159.892,-159.847,0.000000000000000
8.58,0.777886,-159.892,-159.847,0.000000000000000
8.595,0.554446,-159.892,-159.847,0.000000000000000
8.61,0.535803,-159.892,-159.847,0.000000000000000
8.625,0.56765,-159.892,-159.847,0.000000000000000
8.64,0.520536,-159.892,-159.847,0.000000000000000
8.655,0.820592,-159.892,-159.847,0.000000000000000
8.67,0.599382,-159.892,-159.847,0.000000000000000
8.685,0.634095,-159.892,-159.847,0.000000000000000
8.7,0.564503,-159.892,-159.847,0.000000000000000
8.715,0.502466,-159.892,-159.847,0.000000000000000
8.73,0.778324,-159.892,-159.847,0.000000000000000
8.745,0.562398,-159.892,-159.847,0.000000000000000
8.76,0.527539,-159.892,-159.847,0.000000000000000
8.775,0.576268,-159.892,-159.847,0.000000000000000
8.79,0.516034,-159.892,-159.847,0.000000000000000
8.805,0.823072,-159.892,-159.847,0.000000000000000
8.82,0.584251,-159.892,-159.847,0.000000000000000
8.835,0.616098,-159.892,-159.847,0.000000000000000
8.85,0.581844,-159.892,-159.847,0.000000000000000
8.865,0.516326,-159.892,-159.847,0.000000000000000
8.88,0.814725,-159.892,-159.847,0.000000000000000
8.895,0.555489,-159.892,-159.847,0.000000000000000
8.91,0.556541,-159.892,-159.847,0.000000000000000
8.925,0.588419,-159.892,-159.847,0.000000000000000
8.94,0.52732,-159.892,-159.847,0.000000000000000
8.955,0.837964,-159.892,-159.847,0.000000000000000
8.97,0.599184,-159.892,-159.847,0.000000000000000
8.985,0.649185,-159.892,-159.847,0.000000000000000
9,0.575799,-159.892,-159.847,0.000000000000000
9.015,0.535282,-159.892,-159.847,0.000000000000000
9.03,0.793737,-159.892,-159.847,0.000000000000000
9.045,0.574476,-159.892,-159.847,0.000000000000000
9.06,0.54217,-159.892,-159.847,0.000000000000000
9.075,0.602196,-159.892,-159.847,0.000000000000000
9.09,0.54809,-159.892,-159.847,0.000000000000000
9.105,0.853012,-159.892,-159.847,0.000000000000000
9.12,0.598351,-159.892,-159.847,0.000000000000000
9.135,0.644694,-159.892,-159.847,0.000000000000000
9.15,0.59734,-159.892,-159.847,0.000000000000000
9.165,0.515357,-159.892,-159.847,0.000000000000000
9.18,0.829127,-159.892,-159.847,0.000000000000000
9.195,0.573152,-159.892,-159.847,0.000000000000000
9.21,0.558459,-159.892,-159.847,0.000000000000000
9.225,0.60377,-159.892,-159.847,0.000000000000000
9.24,0.542306,-159.892,-159.847,0.000000000000000
9.255,0.845342,-159.892,-159.847,0.000000000000000
9.27,0.612034,-159.892,-159.847,0.000000000000000
9.285,0.663181,-159.892,-159.847,0.000000000000000
9.3,0.579999,-159.892,-159.847,0.000000000000000
9.315,0.528696,-159.892,-159.847,0.000000000000000
9.33,0.818393,-159.892,-159.847,0.000000000000000
9.345,0.57533,-159.892,-159.847,0.000000000000000
9.36,0.553852,-159.892,-159.847,0.000000000000000
9.375,0.600466,-159.892,-159.847,0.000000000000000
9.39,0.554832,-159.892,-159.847,0.000000000000000
9.405,0.848948,-159.892,-159.847,0.000000000000000
9.42,0.625717,-159.892,-159.847,0.000000000000000
9.435,0.659387,-159.892,-159.847,0.000000000000000
9.45,0.599747,-159.892,-159.847,0.000000000000000
9.465,0.552425,-159.892,-159.847,0.000000000000000
9.48,0.82698,-159.892,-159.847,0.000000000000000
9.495,0.594516,-159.892,-159.847,0.000000000000000
9.51,0.580437,-159.892,-159.847,0.000000000000000
9.525,0.634064,-159.892,-159.847,0.000000000000000
9.54,0.547756,-159.892,-159.847,0.000000000000000
9.555,0.86434,-159.892,-159.847,0.000000000000000
9.57,0.633428,-159.892,-159.847,0.000000000000000
9.585,0.683898,-159.892,-159.847,0.000000000000000
9.6,0.604551,-159.892,-159.847,0.000000000000000
9.615,0.530436,-159.892,-159.847,0.000000000000000
9.63,0.832503,-159.892,-159.847,0.000000000000000
9.645,0.596027,-159.892,-159.847,0.000000000000000
9.66,0.560095,-159.892,-159.847,0.000000000000000
9.675,0.636773,-159.892,-159.847,0.000000000000000
9.69,0.559865,-159.892,-159.847,0.000000000000000
9.705,0.867425,-159.892,-159.847,0.000000000000000
9.72,0.633814,-159.892,-159.847,0.000000000000000
9.735,0.668985,-159.892,-159.847,0.000000000000000
9.75,0.597548,-159.892,-159.847,0.000000000000000
9.765,0.540076,-159.892,-159.847,0.000000000000000
9.78,0.847249,-159.892,-159.847,0.000000000000000
9.795,0.61515,-159.892,-159.847,0.000000000000000
9.81,0.595902,-159.892,-159.847,0.000000000000000
9.825,0.630604,-159.892,-159.847,0.000000000000000
9.84,0.56814,-159.892,-159.847,0.000000000000000
9.855,0.873865,-159.892,-159.847,0.000000000000000
9.87,0.650321,-159.892,-159.847,0.000000000000000
9.885,0.684419,-159.892,-159.847,0.000000000000000
9.9,0.615733,-159.892,-159.847,0.000000000000000
9.915,0.553925,-159.892,-159.847,0.000000000000000
9.93,0.847906,-159.892,-159.847,0.000000000000000
9.945,0.609064,-159.892,-159.847,0.000000000000000
9.96,0.562398,-159.892,-159.847,0.000000000000000
9.975,0.646444,-159.892,-159.847,0.000000000000000
9.99,0.578175,-159.892,-159.847,0.000000000000000
10.005,0.867414,-159.892,-159.847,0.000000000000000
10.02,0.659283,-159.892,-159.847,0.000000000000000
10.035,0.68618,-159.892,-159.847,0.000000000000000
10.05,0.614733,-159.892,-159.847,0.000000000000000
10.065,0.56641,-159.892,-159.847,0.000000000000000
10.08,0.855878,-159.892,-159.847,0.000000000000000
10.095,0.625988,-159.892,-159.847,0.000000000000000
10.11,0.594349,-159.892,-159.847,0.000000000000000
10.125,0.658554,-159.892,-159.847,0.000000000000000
10.14,0.585262,-159.892,-159.847,0.000000000000000
10.155,0.655813,-159.892,-159.847,0.000000000000000
10.17,0.637732,-159.892,-159.847,0.000000000000000
10.185,0.582729,-159.892,-159.847,0.000000000000000
10.2,0.617474,-159.892,-159.847,0.000000000000000
10.215,0.605896,-159.892,-159.847,0.000000000000000
10.23,0.59907,-159.892,-159.847,0.000000000000000
10.245,0.606854,-159.892,-159.847,0.000000000000000
10.26,0.595131,-159.892,-159.847,0.000000000000000
10.275,0.610439,-159.892,-159.847,0.000000000000000
10.29,0.601581,-159.892,-159.847,0.000000000000000
10.305,0.624675,-159.892,-159.847,0.000000000000000
10.32,0.62109,-159.892,-159.847,0.000000000000000
10.335,0.598913,-159.892,-159.847,0.000000000000000
10.35,0.601102,-159.892,-159.847,0.000000000000000
10.365,0.609876,-159.892,-159.847,0.000000000000000
10.38,0.610314,-159.892,-159.847,0.000000000000000
10.395,0.603676,-159.892,-159.847,0.000000000000000
10.41,0.610231,-159.892,-159.847,0.000000000000000
10.425,0.604395,-159.892,-159.847,0.000000000000000
10.44,0.614952,-159.892,-159.847,0.000000000000000
10.455,0.610575,-159.892,-159.847,0.000000000000000
10.47,0.621809,-159.892,-159.847,0.000000000000000
10.485,0.617109,-159.892,-159.847,0.000000000000000
10.5,0.605479,-159.892,-159.847,0.000000000000000
10.515,0.593192,-159.892,-159.847,0.000000000000000
10.53,0.594255,-159.892,-159.847,0.000000000000000
10.545,0.605927,-159.892,-159.847,0.000000000000000
10.56,0.602102,-159.892,-159.847,0.000000000000000
10.575,0.601988,-159.892,-159.847,0.000000000000000
10.59,0.607917,-159.892,-159.847,0.000000000000000
10.605,0.599132,-159.892,-159.847,0.000000000000000
10.62,0.610075,-159.892,-159.847,0.000000000000000
10.635,0.607938,-159.892,-159.847,0.000000000000000
10.65,0.606834,-159.892,-159.847,0.000000000000000
10.665,0.594724,-159.892,-159.847,0.000000000000000
10.68,0.580072,-159.892,-159.847,0.000000000000000
10.695,0.599643,-159.892,-159.847,0.000000000000000
10.71,0.588888,-159.892,-159.847,0.000000000000000
10.725,0.603228,-159.892,-159.847,0.000000000000000
10.74,0.602738,-159.892,-159.847,0.000000000000000
10.755,0.594224,-159.892,-159.847,0.000000000000000
10.77,0.606458,-159.892,-159.847,0.000000000000000
10.785,0.594141,-159.892,-159.847,0.000000000000000
10.8,0.600841,-159.892,-159.847,0.000000000000000
10.815,0.588346,-159.892,-159.847,0.000000000000000
10.83,0.595933,-159.892,-159.847,0.000000000000000
10.845,0.581573,-159.892,-159.847,0.000000000000000
10.86,0.586043,-159.892,-159.847,0.000000000000000
10.875,0.610064,-159.892,-159.847,0.000000000000000
10.89,0.596496,-159.892,-159.847,0.000000000000000
10.905,0.598059,-159.892,-159.847,0.000000000000000
10.92,0.585939,-159.892,-159.847,0.000000000000000
10.935,0.601727,-159.892,-159.847,0.000000000000000
10.95,0.595235,-159.892,-159.847,0.000000000000000
10.965,0.599028,-159.892,-159.847,0.000000000000000
10.98,0.591785,-159.892,-159.847,0.000000000000000
10.995,0.603572,-159.892,-159.847,0.000000000000000
11.01,0.592525,-159.892,-159.847,0.000000000000000
11.025,0.592286,-159.892,-159.847,0.000000000000000
11.04,0.615994,-159.892,-159.847,0.000000000000000
11.055,0.61985,-159.892,-159.847,0.000000000000000
11.07,0.610971,-159.892,-159.847,0.000000000000000
11.085,0.603124,-159.892,-159.847,0.000000000000000
11.1,0.590139,-159.892,-159.847,0.000000000000000
11.115,0.577873,-159.892,-159.847,0.000000000000000
11.13,0.596037,-159.892,-159.847,0.000000000000000
11.145,0.593005,-159.892,-159.847,0.000000000000000
11.16,0.587888,-159.892,-159.847,0.000000000000000
11.175,0.609043,-159.892,-159.847,0.000000000000000
11.19,0.599883,-159.892,-159.847,0.000000000000000
11.205,0.615223,-159.892,-159.847,0.000000000000000
11.22,0.592379,-159.892,-159.847,0.000000000000000
11.235,0.60476,-159.892,-159.847,0.000000000000000
11.25,0.599726,-159.892,-159.847,0.000000000000000
11.265,0.590222,-159.892,-159.847,0.000000000000000
11.28,0.589816,-159.892,-159.847,0.000000000000000
11.295,0.587627,-159.892,-159.847,0.000000000000000
11.31,0.606396,-159.892,-159.847,0.000000000000000
11.325,0.603728,-159.892,-159.847,0.000000000000000
11.34,0.593661,-159.892,-159.847,0.000000000000000
11.355,0.609095,-159.892,-159.847,0.000000000000000
11.37,0.600508,-159.892,-159.847,0.000000000000000
11.385,0.589222,-159.892,-159.847,0.000000000000000
11.4,0.596725,-159.892,-159.847,0.000000000000000
11.415,0.595568,-159.892,-159.847,0.000000000000000
11.43,0.593463,-159.892,-159.847,0.000000000000000
11.445,0.590274,-159.892,-159.847,0.000000000000000
11.46,0.595798,-159.892,-159.847,0.000000000000000
11.475,0.613461,-159.892,-159.847,0.000000000000000
11.49,0.599278,-159.892,-159.847,0.000000000000000
11.505,0.615462,-159.892,-159.847,0.000000000000000
11.52,0.589222,-159.892,-159.847,0.000000000000000
11.535,0.609095,-159.892,-159.847,0.000000000000000
11.55,0.589597,-159.892,-159.847,0.000000000000000
11.565,0.596392,-159.892,-159.847,0.000000000000000
11.58,0.590879,-159.892,-159.847,0.000000000000000
11.595,0.586606,-159.892,-159.847,0.000000000000000
11.61,0.581125,-159.892,-159.847,0.000000000000000
11.625,0.605427,-159.892,-159.847,0.000000000000000
11.64,0.597236,-159.892,-159.847,0.000000000000000
11.655,0.618432,-159.892,-159.847,0.000000000000000
11.67,0.605698,-159.892,-159.847,0.000000000000000
11.685,0.592588,-159.892,-159.847,0.000000000000000
11.7,0.598924,-159.892,-159.847,0.000000000000000
11.715,0.599101,-159.892,-159.847,0.000000000000000
11.73,0.591869,-159.892,-159.847,0.000000000000000
11.745,0.588159,-159.892,-159.847,0.000000000000000
11.76,0.583615,-159.892,-159.847,0.000000000000000
11.775,0.611971,-159.892,-159.847,0.000000000000000
11.79,0.599643,-159.892,-159.847,0.000000000000000
11.805,0.620579,-159.892,-159.847,0.000000000000000
11.82,0.596986,-159.892,-159.847,0.000000000000000
11.835,0.607428,-159.892,-159.847,0.000000000000000
11.85,0.595214,-159.892,-159.847,0.000000000000000
11.865,0.590702,-159.892,-159.847,0.000000000000000
11.88,0.586262,-159.892,-159.847,0.000000000000000
11.895,0.581166,-159.892,-159.847,0.000000000000000
11.91,0.590326,-159.892,-159.847,0.000000000000000
11.925,0.599935,-159.892,-159.847,0.000000000000000
11.94,0.601915,-159.892,-159.847,0.000000000000000
11.955,0.593182,-159.892,-159.847,0.000000000000000
11.97,0.60081,-159.892,-159.847,0.000000000000000
11.985,0.581917,-159.892,-159.847,0.000000000000000
12,0.593599,-159.892,-159.847,0.000000000000000
12.015,0.574622,-159.892,-159.847,0.000000000000000
12.03,0.577925,-159.892,-159.847,0.000000000000000
12.045,0.58894,-159.892,-159.847,0.000000000000000
12.06,0.613941,-159.892,-159.847,0.000000000000000
12.075,0.596048,-159.892,-159.847,0.000000000000000
12.09,0.592213,-159.892,-159.847,0.000000000000000
12.105,0.605844,-159.892,-159.847,0.000000000000000
12.12,0.606114,-159.892,-159.847,0.000000000000000
12.135,0.612544,-159.892,-159.847,0.000000000000000
12.15,0.603217,-159.892,-159.847,0.000000000000000
12.165,0.589983,-159.892,-159.847,0.000000000000000
12.18,0.583303,-159.892,-159.847,0.000000000000000
12.195,0.609428,-159.892,-159.847,0.000000000000000
12.21,0.602623,-159.892,-159.847,0.000000000000000
12.225,0.6055,-159.892,-159.847,0.000000000000000
12.24,0.601237,-159.892,-159.847,0.000000000000000
12.255,0.61591,-159.892,-159.847,0.000000000000000
12.27,0.610689,-159.892,-159.847,0.000000000000000
12.285,0.597621,-159.892,-159.847,0.000000000000000
12.3,0.596788,-159.892,-159.847,0.000000000000000
12.315,0.586523,-159.892,-159.847,0.000000000000000
12.33,0.578978,-159.892,-159.847,0.000000000000000
12.345,0.601394,-159.892,-159.847,0.000000000000000
12.36,0.594432,-159.892,-159.847,0.000000000000000
12.375,0.603645,-159.892,-159.847,0.000000000000000
12.39,0.601925,-159.892,-159.847,0.000000000000000
12.405,0.605927,-159.892,-159.847,0.000000000000000
12.42,0.595068,-159.892,-159.847,0.000000000000000
12.435,0.59659,-159.892,-159.847,0.000000000000000
12.45,0.585241,-159.892,-159.847,0.000000000000000
12.465,0.577967,-159.892,-159.847,0.000000000000000
12.48,0.578332,-159.892,-159.847,0.000000000000000
12.495,0.583667,-159.892,-159.847,0.000000000000000
12.51,0.588159,-159.892,-159.847,0.000000000000000
12.525,0.592932,-159.892,-159.847,0.000000000000000
12.54,0.596537,-159.892,-159.847,0.000000000000000
12.555,0.607855,-159.892,-159.847,0.000000000000000
12.57,0.599851,-159.892,-159.847,0.000000000000000
12.585,0.594933,-159.892,-159.847,0.000000000000000
12.6,0.588669,-159.892,-159.847,0.000000000000000
12.615,0.594057,-159.892,-159.847,0.000000000000000
12.63,0.5914,-159.892,-159.847,0.000000000000000
12.645,0.585314,-159.892,-159.847,0.000000000000000
12.66,0.590629,-159.892,-159.847,0.000000000000000
12.675,0.600518,-159.892,-159.847,0.000000000000000
12.69,0.587773,-159.892,-159.847,0.000000000000000
12.705,0.610992,-159.892,-159.847,0.000000000000000
12.72,0.612451,-159.892,-159.847,0.000000000000000
12.735,0.595589,-159.892,-159.847,0.000000000000000
12.75,0.589639,-159.892,-159.847,0.000000000000000
12.765,0.570756,-159.892,-159.847,0.000000000000000
12.78,0.585918,-159.892,-159.847,0.000000000000000
12.795,0.575653,-159.892,-159.847,0.000000000000000
12.81,0.599164,-159.892,-159.847,0.000000000000000
12.825,0.598559,-159.892,-159.847,0.000000000000000
12.84,0.601644,-159.892,-159.847,0.000000000000000
12.855,0.599935,-159.892,-159.847,0.000000000000000
12.87,0.592525,-159.892,-159.847,0.000000000000000
12.885,0.601081,-159.892,-159.847,0.000000000000000
12.9,0.579572,-159.892,-159.847,0.000000000000000
12.915,0.593276,-159.892,-159.847,0.000000000000000
12.93,0.592953,-159.892,-159.847,0.000000000000000
12.945,0.588836,-159.892,-159.847,0.000000000000000
12.96,0.593244,-159.892,-159.847,0.000000000000000
12.975,0.608074,-159.892,-159.847,0.000000000000000
12.99,0.608407,-159.892,-159.847,0.000000000000000
13.005,0.608157,-159.892,-159.847,0.000000000000000
13.02,0.600779,-159.892,-159.847,0.000000000000000
13.035,0.592056,-159.892,-159.847,0.000000000000000
13.05,0.575924,-159.892,-159.847,0.000000000000000
13.065,0.594839,-159.892,-159.847,0.000000000000000
13.08,0.589097,-159.892,-159.847,0.000000000000000
13.095,0.589534,-159.892,-159.847,0.000000000000000
13.11,0.599039,-159.892,-159.847,0.000000000000000
13.125,0.596808,-159.892,-159.847,0.000000000000000
13.14,0.607865,-159.892,-159.847,0.000000000000000
13.155,0.590274,-159.892,-159.847,0.000000000000000
13.17,0.605458,-159.892,-159.847,0.000000000000000
13.185,0.594526,-159.892,-159.847,0.000000000000000
13.2,0.588482,-159.892,-159.847,0.000000000000000
13.215,0.580135,-159.892,-159.847,0.000000000000000
13.23,0.586033,-159.892,-159.847,0.000000000000000
13.245,0.582323,-159.892,-159.847,0.000000000000000
13.26,0.585606,-159.892,-159.847,0.000000000000000
13.275,0.59338,-159.892,-159.847,0.000000000000000
13.29,0.5872,-159.892,-159.847,0.000000000000000
13.305,0.593171,-159.892,-159.847,0.000000000000000
13.32,0.601217,-159.892,-159.847,0.000000000000000
13.335,0.587825,-159.892,-159.847,0.000000000000000
13.35,0.587773,-159.892,-159.847,0.000000000000000
13.365,0.577831,-159.892,-159.847,0.000000000000000
13.38,0.58374,-159.892,-159.847,0.000000000000000
13.395,0.585105,-159.892,-159.847,0.000000000000000
13.41,0.596016,-159.892,-159.847,0.000000000000000
13.425,0.602425,-159.892,-159.847,0.000000000000000
13.44,0.602467,-159.892,-159.847,0.000000000000000
13.455,0.583094,-159.892,-159.847,0.000000000000000
13.47,0.608282,-159.892,-159.847,0.000000000000000
13.485,0.587669,-159.892,-159.847,0.000000000000000
13.5,0.586377,-159.892,-159.847,0.000000000000000
13.515,0.582,-159.892,-159.847,0.000000000000000
13.53,0.571402,-159.892,-159.847,0.000000000000000
13.545,0.581104,-159.892,-159.847,0.000000000000000
13.56,0.5956,-159.892,-159.847,0.000000000000000
13.575,0.578092,-159.892,-159.847,0.000000000000000
13.59,0.583584,-159.892,-159.847,0.000000000000000
13.605,0.595266,-159.892,-159.847,0.000000000000000
13.62,0.594193,-159.892,-159.847,0.000000000000000
13.635,0.57582,-159.892,-159.847,0.000000000000000
13.65,0.580979,-159.892,-159.847,0.000000000000000
13.665,0.582302,-159.892,-159.847,0.000000000000000
13.68,0.593536,-159.892,-159.847,0.000000000000000
13.695,0.597048,-159.892,-159.847,0.000000000000000
13.71,0.601779,-159.892,-159.847,0.000000000000000
13.725,0.587096,-159.892,-159.847,0.000000000000000
13.74,0.603197,-159.892,-159.847,0.000000000000000
13.755,0.591264,-159.892,-159.847,0.000000000000000
13.77,0.599184,-159.892,-159.847,0.000000000000000
13.785,0.597131,-159.892,-159.847,0.000000000000000
13.8,0.583105,-159.892,-159.847,0.000000000000000
13.815,0.573663,-159.892,-159.847,0.000000000000000
13.83,0.580656,-159.892,-159.847,0.000000000000000
13.845,0.601185,-159.892,-159.847,0.000000000000000
13.86,0.600529,-159.892,-159.847,0.000000000000000
13.875,0.596079,-159.892,-159.847,0.000000000000000
13.89,0.600029,-159.892,-159.847,0.000000000000000
13.905,0.612638,-159.892,-159.847,0.000000000000000
13.92,0.60649,-159.892,-159.847,0.000000000000000
13.935,0.577019,-159.892,-159.847,0.000000000000000
13.95,0.588471,-159.892,-159.847,0.000000000000000
13.965,0.595141,-159.892,-159.847,0.000000000000000
13.98,0.582834,-159.892,-159.847,0.000000000000000
13.995,0.596475,-159.892,-159.847,0.000000000000000
14.01,0.583699,-159.892,-159.847,0.000000000000000
14.025,0.604218,-159.892,-159.847,0.000000000000000
14.04,0.599841,-159.892,-159.847,0.000000000000000
14.055,0.602571,-159.892,-159.847,0.000000000000000
14.07,0.605375,-159.892,-159.847,0.000000000000000
14.085,0.594682,-159.892,-159.847,0.000000000000000
14.1,0.594307,-159.892,-159.847,0.000000000000000
14.115,0.578175,-159.892,-159.847,0.000000000000000
14.13,0.595527,-159.892,-159.847,0.000000000000000
14.145,0.583553,-159.892,-159.847,0.000000000000000
14.149,0.586971,-159.892,-159.847,0.000000000000000